onset	duration	trial_type	RT	response	stim_height	stim_width	stim_area	stim_area_scaled	stim_name
0.45	3.00	bus1	1233	1	686	1280	878080	0.8583	busRept19.jpg
3.95	3.00	mal1	2863	2	300	461	138300	0.0396	malware07.jpg
7.45	3.00	bus1	2741	1	760	1280	972800	0.9632	busRept07.jpg
10.95	3.00	bus1	1988	1	756	1280	967680	0.9575	busRept10.jpg
14.45	3.00	bus1	850	1	768	1056	811008	0.7841	busRept20.jpg
17.95	3.00	bus1	1756	1	768	879	675072	0.6337	busRept16.jpg
21.45	3.00	mal1	1963	1	676	1274	861224	0.8397	malware19.jpg
24.95	3.00	mal1	1036	1	768	1223	939264	0.9261	malware03.jpg
28.45	3.00	mal1	2379	1	281	500	140500	0.0421	malware14.jpg
31.95	3.00	bus1	2960	1	772	1280	988160	0.9802	busRept04.jpg
35.45	3.00	mal1	2876	1	457	500	228500	0.1394	malware11.jpg
38.95	3.00	mal1	1724	1	236	500	118000	0.0172	malware08.jpg
42.45	3.00	mal1	2766	2	265	500	132500	0.0332	malware10.jpg
45.95	3.00	bus1	2277	1	768	1020	783360	0.7535	busRept01.jpg
49.45	3.00	bus1	1177	1	686	1280	878080	0.8583	busRept11.jpg
52.95	3.00	bus1	720	1	768	1148	881664	0.8623	busRept17.jpg
56.45	3.00	mal1	1875	2	360	500	180000	0.0858	malware04.jpg
59.95	3.00	mal2	1419	2	360	500	180000	0.0858	malware04.jpg
63.45	3.00	mal2	1116	1	768	1223	939264	0.9261	malware03.jpg
66.95	3.00	novel	2160	1	768	875	672000	0.6303	busNoRept14.jpg
70.45	3.00	bus1	1180	1	768	1056	811008	0.7841	busRept18.jpg
73.95	3.00	bus2	1329	1	760	1280	972800	0.9632	busRept07.jpg
77.45	3.00	bus1	1479	1	697	1280	892160	0.8739	busRept13.jpg
80.95	3.00	mal2	2495	1	236	500	118000	0.0172	malware08.jpg
84.45	3.00	mal2	1354	1	676	1274	861224	0.8397	malware19.jpg
87.95	3.00	bus1	980	1	686	1280	878080	0.8583	busRept09.jpg
91.45	3.00	mal1	1489	1	410	500	205000	0.1134	malware17.jpg
94.95	3.00	mal3	2082	2	360	500	180000	0.0858	malware04.jpg
98.45	3.00	mal3	892	1	676	1274	861224	0.8397	malware19.jpg
101.95	3.00	mal1	1681	1	383	539	206437	0.1150	malware06.jpg
105.45	3.00	bus2	683	1	768	1056	811008	0.7841	busRept18.jpg
108.95	3.00	bus2	682	1	768	1056	811008	0.7841	busRept20.jpg
112.45	3.00	novel	763	1	768	1148	881664	0.8623	busNoRept08.jpg
115.95	3.00	bus1	2691	2	721	1280	922880	0.9079	busRept02.jpg
119.45	3.00	bus1	1884	1	768	1059	813312	0.7867	busRept08.jpg
122.95	3.00	mal1	0	NaN	448	500	224000	0.1345	malware20.jpg
126.03	3.00	bus1	2490	2	720	1280	921600	0.9065	busRept05.jpg
129.51	3.00	mal1	1848	2	389	500	194500	0.1018	malware01.jpg
133.01	3.00	bus1	1169	1	768	1021	784128	0.7544	busRept06.jpg
136.51	3.00	mal1	1543	2	598	1007	602186	0.5530	malware02.jpg
140.01	3.00	bus1	1088	1	692	1280	885760	0.8668	busRept15.jpg
143.51	3.00	mal1	1879	1	271	500	135500	0.0365	malware12.jpg
147.01	3.00	bus2	1557	2	692	1280	885760	0.8668	busRept15.jpg
150.51	3.00	bus3	2571	1	768	1056	811008	0.7841	busRept20.jpg
154.01	3.00	bus2	1252	2	720	1280	921600	0.9065	busRept05.jpg
157.51	3.00	mal1	0	NaN	295	500	147500	0.0498	malware09.jpg
160.76	3.00	bus2	2141	2	768	1059	813312	0.7867	busRept08.jpg
164.24	3.00	mal1	1552	2	205	500	102500	0.0000	malware05.jpg
167.74	3.00	novel	911	1	768	1152	884736	0.8657	busNoRept10.jpg
171.24	3.00	bus2	2067	1	772	1280	988160	0.9802	busRept04.jpg
174.74	3.00	mal1	1364	2	229	500	114500	0.0133	malware18.jpg
178.24	3.00	bus1	2736	1	768	1029	790272	0.7612	busRept12.jpg
181.74	3.00	mal2	1667	2	295	500	147500	0.0498	malware09.jpg
185.24	3.00	bus2	558	1	768	1029	790272	0.7612	busRept12.jpg
188.74	3.00	mal2	2633	2	265	500	132500	0.0332	malware10.jpg
192.24	3.00	bus2	700	1	686	1280	878080	0.8583	busRept09.jpg
195.74	3.00	bus2	1372	1	768	879	675072	0.6337	busRept16.jpg
199.24	3.00	novel	961	2	768	904	694272	0.6549	busNoRept09.jpg
202.74	3.00	novel	2667	2	686	1280	878080	0.8583	busNoRept15.jpg
206.24	3.00	mal2	1401	2	205	500	102500	0.0000	malware05.jpg
209.74	3.00	bus2	746	1	768	1148	881664	0.8623	busRept17.jpg
213.24	3.00	mal4	958	2	676	1274	861224	0.8397	malware19.jpg
216.74	3.00	mal1	1648	2	609	1274	775866	0.7452	malware16.jpg
220.24	3.00	mal2	867	1	383	539	206437	0.1150	malware06.jpg
223.74	3.00	mal3	1995	1	768	1223	939264	0.9261	malware03.jpg
227.24	3.00	bus2	1430	1	686	1280	878080	0.8583	busRept19.jpg
230.74	3.00	novel	0	NaN	768	1148	881664	0.8623	busNoRept18.jpg
234.24	3.00	bus2	1022	1	686	1280	878080	0.8583	busRept11.jpg
237.74	3.00	bus3	571	1	686	1280	878080	0.8583	busRept09.jpg
241.24	3.00	bus2	816	1	721	1280	922880	0.9079	busRept02.jpg
244.74	3.00	mal2	1540	2	609	1274	775866	0.7452	malware16.jpg
248.24	3.00	bus3	453	1	768	1148	881664	0.8623	busRept17.jpg
251.74	3.00	novel	1307	2	768	991	761088	0.7289	busNoRept13.jpg
255.24	3.00	bus1	1186	1	768	1244	955392	0.9439	busRept14.jpg
258.74	3.00	bus3	2257	1	760	1280	972800	0.9632	busRept07.jpg
262.24	3.00	mal1	1441	2	334	500	167000	0.0714	malware13.jpg
265.74	3.00	mal2	2845	2	300	461	138300	0.0396	malware07.jpg
269.24	3.00	mal2	1694	1	229	500	114500	0.0133	malware18.jpg
272.74	3.00	mal2	1179	1	457	500	228500	0.1394	malware11.jpg
276.24	3.00	mal3	1267	2	265	500	132500	0.0332	malware10.jpg
279.74	3.00	mal2	1875	1	598	1007	602186	0.5530	malware02.jpg
283.24	3.00	mal2	1699	2	389	500	194500	0.1018	malware01.jpg
286.74	3.00	mal3	885	1	229	500	114500	0.0133	malware18.jpg
290.24	3.00	mal3	2009	2	300	461	138300	0.0396	malware07.jpg
293.74	3.00	mal3	0	NaN	457	500	228500	0.1394	malware11.jpg
296.79	3.00	bus3	667	1	768	1059	813312	0.7867	busRept08.jpg
300.29	3.00	novel	0	NaN	768	1042	800256	0.7722	busNoRept03.jpg
303.79	3.00	bus3	1195	1	692	1280	885760	0.8668	busRept15.jpg
307.29	3.00	bus2	2815	1	756	1280	967680	0.9575	busRept10.jpg
310.79	3.00	mal3	869	2	609	1274	775866	0.7452	malware16.jpg
314.29	3.00	mal3	1306	1	383	539	206437	0.1150	malware06.jpg
317.79	3.00	novel	1534	2	768	1005	771840	0.7408	busNoRept04.jpg
321.29	3.00	mal3	2041	2	236	500	118000	0.0172	malware08.jpg
324.79	3.00	bus2	1448	1	697	1280	892160	0.8739	busRept13.jpg
328.29	3.00	mal2	1429	1	271	500	135500	0.0365	malware12.jpg
331.79	3.00	bus3	1202	1	768	1056	811008	0.7841	busRept18.jpg
335.29	3.00	mal3	1697	1	598	1007	602186	0.5530	malware02.jpg
338.79	3.00	bus3	782	1	686	1280	878080	0.8583	busRept19.jpg
342.29	3.00	novel	909	1	768	1029	790272	0.7612	busNoRept19.jpg
345.79	3.00	mal4	2255	1	768	1223	939264	0.9261	malware03.jpg
349.29	3.00	bus3	987	1	772	1280	988160	0.9802	busRept04.jpg
352.79	3.00	bus2	2821	1	768	1244	955392	0.9439	busRept14.jpg
356.29	3.00	mal2	2261	2	448	500	224000	0.1345	malware20.jpg
359.79	3.00	bus2	1932	1	768	1020	783360	0.7535	busRept01.jpg
363.29	3.00	novel	870	1	760	1280	972800	0.9632	busNoRept06.jpg
366.79	3.00	mal2	1588	1	410	500	205000	0.1134	malware17.jpg
370.29	3.00	mal3	609	1	410	500	205000	0.1134	malware17.jpg
373.79	3.00	mal1	0	NaN	407	500	203500	0.1118	malware15.jpg
376.85	3.00	mal3	690	2	205	500	102500	0.0000	malware05.jpg
380.34	3.00	mal3	2460	1	448	500	224000	0.1345	malware20.jpg
383.84	3.00	bus1	2459	2	768	1024	786432	0.7569	busRept03.jpg
387.34	3.00	mal3	1747	1	271	500	135500	0.0365	malware12.jpg
390.84	3.00	mal3	0	NaN	295	500	147500	0.0498	malware09.jpg
394.04	3.00	mal2	2089	1	281	500	140500	0.0421	malware14.jpg
397.52	3.00	bus2	844	2	768	1024	786432	0.7569	busRept03.jpg
401.02	3.00	mal2	2650	1	407	500	203500	0.1118	malware15.jpg
404.52	3.00	bus3	860	2	720	1280	921600	0.9065	busRept05.jpg
408.02	3.00	mal4	1392	2	300	461	138300	0.0396	malware07.jpg
411.52	3.00	novel	1755	1	786	1280	1006080	1.0000	busNoRept17.jpg
415.02	3.00	bus3	722	2	768	1024	786432	0.7569	busRept03.jpg
418.52	3.00	bus3	1825	1	768	1244	955392	0.9439	busRept14.jpg
422.02	3.00	bus2	648	1	768	1021	784128	0.7544	busRept06.jpg
425.52	3.00	mal4	795	1	271	500	135500	0.0365	malware12.jpg
429.02	3.00	bus3	576	1	697	1280	892160	0.8739	busRept13.jpg
432.52	3.00	mal2	908	2	334	500	167000	0.0714	malware13.jpg
436.02	3.00	mal3	1924	1	281	500	140500	0.0421	malware14.jpg
439.52	3.00	mal3	1968	2	334	500	167000	0.0714	malware13.jpg
443.02	3.00	mal3	1278	1	407	500	203500	0.1118	malware15.jpg
446.52	3.00	mal3	1586	2	389	500	194500	0.1018	malware01.jpg
450.02	3.00	bus3	1652	1	768	879	675072	0.6337	busRept16.jpg
