onset	duration	trial_type	RT	response	stim_height	stim_width	stim_area	stim_area_scaled	stim_name
0.48	3.00	mal4	839	1	407	500	203500	0.1118	malware15.jpg
3.98	3.00	bus3	634	1	768	1029	790272	0.7612	busRept12.jpg
7.48	3.00	bus4	800	1	760	1280	972800	0.9632	busRept07.jpg
10.98	3.00	mal4	1100	2	334	500	167000	0.0714	malware13.jpg
14.48	3.00	mal4	1729	1	383	539	206437	0.1150	malware06.jpg
17.98	3.00	bus4	647	1	692	1280	885760	0.8668	busRept15.jpg
21.48	3.00	bus3	848	1	768	1020	783360	0.7535	busRept01.jpg
24.98	3.00	bus4	1155	1	772	1280	988160	0.9802	busRept04.jpg
28.48	3.00	bus4	826	1	686	1280	878080	0.8583	busRept19.jpg
31.98	3.00	bus5	795	1	760	1280	972800	0.9632	busRept07.jpg
35.48	3.00	bus4	528	1	768	1029	790272	0.7612	busRept12.jpg
38.98	3.00	novel	564	1	768	1003	770304	0.7391	busNoRept01.jpg
42.48	3.00	bus4	681	1	768	1020	783360	0.7535	busRept01.jpg
45.98	3.00	novel	1266	1	768	1029	790272	0.7612	busNoRept20.jpg
49.48	3.00	novel	743	1	768	1009	774912	0.7442	busNoRept07.jpg
52.98	3.00	mal5	831	2	334	500	167000	0.0714	malware13.jpg
56.48	3.00	bus4	826	1	768	879	675072	0.6337	busRept16.jpg
59.98	3.00	bus3	606	1	686	1280	878080	0.8583	busRept11.jpg
63.48	3.00	bus3	703	1	768	1021	784128	0.7544	busRept06.jpg
66.98	3.00	mal4	958	2	205	500	102500	0.0000	malware05.jpg
70.48	3.00	mal4	1134	1	281	500	140500	0.0421	malware14.jpg
73.98	3.00	mal4	1573	1	410	500	205000	0.1134	malware17.jpg
77.48	3.00	novel	1626	2	768	1024	786432	0.7569	busNoRept02.jpg
80.98	3.00	bus4	1766	1	768	1056	811008	0.7841	busRept18.jpg
84.48	3.00	mal4	1559	2	389	500	194500	0.1018	malware01.jpg
87.98	3.00	novel	1241	1	768	1090	837120	0.8130	busNoRept05.jpg
91.48	3.00	mal4	1515	2	609	1274	775866	0.7452	malware16.jpg
94.98	3.00	mal4	2474	1	457	500	228500	0.1394	malware11.jpg
98.48	3.00	bus4	1058	1	768	1021	784128	0.7544	busRept06.jpg
101.98	3.00	bus3	1055	1	721	1280	922880	0.9079	busRept02.jpg
105.48	3.00	bus5	703	1	768	1020	783360	0.7535	busRept01.jpg
108.98	3.00	bus4	571	1	686	1280	878080	0.8583	busRept11.jpg
112.48	3.00	bus4	1297	2	720	1280	921600	0.9065	busRept05.jpg
115.98	3.00	bus4	617	1	768	1148	881664	0.8623	busRept17.jpg
119.48	3.00	mal4	614	1	236	500	118000	0.0172	malware08.jpg
122.98	3.00	bus5	545	1	768	1029	790272	0.7612	busRept12.jpg
126.48	3.00	novel	727	1	768	1029	790272	0.7612	busNoRept16.jpg
129.98	3.00	bus4	644	1	686	1280	878080	0.8583	busRept09.jpg
133.48	3.00	mal5	1249	2	389	500	194500	0.1018	malware01.jpg
136.98	3.00	bus4	924	1	768	1244	955392	0.9439	busRept14.jpg
140.48	3.00	bus3	1594	1	756	1280	967680	0.9575	busRept10.jpg
143.98	3.00	mal5	2048	2	457	500	228500	0.1394	malware11.jpg
147.48	3.00	mal5	809	2	609	1274	775866	0.7452	malware16.jpg
150.99	3.00	bus4	866	1	756	1280	967680	0.9575	busRept10.jpg
154.49	3.00	bus4	749	1	697	1280	892160	0.8739	busRept13.jpg
157.99	3.00	mal5	1447	1	271	500	135500	0.0365	malware12.jpg
161.49	3.00	mal5	1581	2	383	539	206437	0.1150	malware06.jpg
164.99	3.00	novel	631	1	768	1056	811008	0.7841	busNoRept12.jpg
168.49	3.00	bus5	834	1	772	1280	988160	0.9802	busRept04.jpg
171.99	3.00	bus5	478	1	697	1280	892160	0.8739	busRept13.jpg
175.49	3.00	bus5	466	1	686	1280	878080	0.8583	busRept19.jpg
178.99	3.00	mal4	1493	2	448	500	224000	0.1345	malware20.jpg
182.49	3.00	bus5	651	1	686	1280	878080	0.8583	busRept11.jpg
185.99	3.00	mal4	2113	2	295	500	147500	0.0498	malware09.jpg
189.49	3.00	mal6	1377	1	271	500	135500	0.0365	malware12.jpg
192.99	3.00	bus4	1446	1	768	1056	811008	0.7841	busRept20.jpg
196.49	3.00	mal4	1624	2	229	500	114500	0.0133	malware18.jpg
199.99	3.00	mal5	1973	2	295	500	147500	0.0498	malware09.jpg
203.49	3.00	bus4	741	1	768	1059	813312	0.7867	busRept08.jpg
206.99	3.00	mal5	969	2	768	1223	939264	0.9261	malware03.jpg
210.49	3.00	mal5	916	2	300	461	138300	0.0396	malware07.jpg
213.99	3.00	mal5	1777	1	676	1274	861224	0.8397	malware19.jpg
217.49	3.00	mal4	2699	2	265	500	132500	0.0332	malware10.jpg
220.99	3.00	bus6	678	1	686	1280	878080	0.8583	busRept11.jpg
224.49	3.00	mal6	774	2	768	1223	939264	0.9261	malware03.jpg
227.99	3.00	bus5	1900	1	768	1021	784128	0.7544	busRept06.jpg
231.49	3.00	bus5	1606	2	720	1280	921600	0.9065	busRept05.jpg
234.99	3.00	mal5	2377	2	229	500	114500	0.0133	malware18.jpg
238.49	3.00	mal4	0	NaN	360	500	180000	0.0858	malware04.jpg
241.81	3.00	bus6	856	1	772	1280	988160	0.9802	busRept04.jpg
245.29	3.00	bus4	2046	1	721	1280	922880	0.9079	busRept02.jpg
248.79	3.00	bus6	954	1	697	1280	892160	0.8739	busRept13.jpg
252.29	3.00	mal6	699	1	229	500	114500	0.0133	malware18.jpg
255.79	3.00	mal5	0	NaN	360	500	180000	0.0858	malware04.jpg
258.82	3.00	mal5	2312	1	205	500	102500	0.0000	malware05.jpg
262.32	3.00	bus4	1023	2	768	1024	786432	0.7569	busRept03.jpg
265.82	3.00	bus5	750	1	686	1280	878080	0.8583	busRept09.jpg
269.32	3.00	bus5	545	1	721	1280	922880	0.9079	busRept02.jpg
272.82	3.00	mal5	917	1	265	500	132500	0.0332	malware10.jpg
276.32	3.00	bus5	1165	2	768	1059	813312	0.7867	busRept08.jpg
279.82	3.00	mal5	2921	1	410	500	205000	0.1134	malware17.jpg
283.32	3.00	mal5	614	1	236	500	118000	0.0172	malware08.jpg
286.82	3.00	mal5	550	1	407	500	203500	0.1118	malware15.jpg
290.32	3.00	mal6	684	1	236	500	118000	0.0172	malware08.jpg
293.82	3.00	bus5	1037	2	768	1024	786432	0.7569	busRept03.jpg
297.32	3.00	mal6	2324	2	457	500	228500	0.1394	malware11.jpg
300.82	3.00	bus5	1151	1	768	1056	811008	0.7841	busRept18.jpg
304.32	3.00	mal6	1051	2	205	500	102500	0.0000	malware05.jpg
307.82	3.00	bus5	1132	1	692	1280	885760	0.8668	busRept15.jpg
311.32	3.00	bus5	638	1	768	1148	881664	0.8623	busRept17.jpg
314.82	3.00	mal6	712	2	676	1274	861224	0.8397	malware19.jpg
318.32	3.00	bus5	847	1	756	1280	967680	0.9575	busRept10.jpg
321.82	3.00	novel	1161	1	768	1176	903168	0.8861	busNoRept11.jpg
325.32	3.00	bus6	623	1	686	1280	878080	0.8583	busRept09.jpg
328.82	3.00	bus6	788	2	768	1024	786432	0.7569	busRept03.jpg
332.32	3.00	mal6	774	1	407	500	203500	0.1118	malware15.jpg
335.82	3.00	bus5	800	1	768	1244	955392	0.9439	busRept14.jpg
339.32	3.00	bus6	920	2	720	1280	921600	0.9065	busRept05.jpg
342.82	3.00	bus6	805	1	760	1280	972800	0.9632	busRept07.jpg
346.32	3.00	mal6	1675	2	360	500	180000	0.0858	malware04.jpg
349.82	3.00	bus6	548	1	756	1280	967680	0.9575	busRept10.jpg
353.32	3.00	mal4	2056	1	598	1007	602186	0.5530	malware02.jpg
356.82	3.00	bus6	1211	2	768	1056	811008	0.7841	busRept18.jpg
360.32	3.00	bus6	1240	1	768	1029	790272	0.7612	busRept12.jpg
363.82	3.00	mal6	749	2	300	461	138300	0.0396	malware07.jpg
367.32	3.00	bus6	1714	1	768	1020	783360	0.7535	busRept01.jpg
370.82	3.00	bus6	608	1	768	1244	955392	0.9439	busRept14.jpg
374.32	3.00	mal6	2201	1	265	500	132500	0.0332	malware10.jpg
377.82	3.00	bus5	1052	1	768	879	675072	0.6337	busRept16.jpg
381.32	3.00	mal6	1275	2	609	1274	775866	0.7452	malware16.jpg
384.82	3.00	mal6	0	NaN	410	500	205000	0.1134	malware17.jpg
388.32	3.00	mal6	2236	2	389	500	194500	0.1018	malware01.jpg
391.82	3.00	mal5	1661	1	448	500	224000	0.1345	malware20.jpg
395.32	3.00	bus5	1641	1	768	1056	811008	0.7841	busRept20.jpg
398.82	3.00	mal6	0	NaN	448	500	224000	0.1345	malware20.jpg
401.88	3.00	mal5	865	1	281	500	140500	0.0421	malware14.jpg
405.38	3.00	mal6	2440	1	334	500	167000	0.0714	malware13.jpg
408.88	3.00	mal5	2278	1	598	1007	602186	0.5530	malware02.jpg
412.38	3.00	bus6	613	1	768	1059	813312	0.7867	busRept08.jpg
415.88	3.00	mal6	873	1	281	500	140500	0.0421	malware14.jpg
419.38	3.00	bus6	818	1	692	1280	885760	0.8668	busRept15.jpg
422.88	3.00	mal6	1377	2	295	500	147500	0.0498	malware09.jpg
426.38	3.00	bus6	838	1	768	1148	881664	0.8623	busRept17.jpg
429.88	3.00	mal6	1370	1	383	539	206437	0.1150	malware06.jpg
433.38	3.00	bus6	756	1	721	1280	922880	0.9079	busRept02.jpg
436.88	3.00	bus6	670	1	768	1056	811008	0.7841	busRept20.jpg
440.38	3.00	bus6	562	1	768	1021	784128	0.7544	busRept06.jpg
443.88	3.00	bus6	853	1	686	1280	878080	0.8583	busRept19.jpg
447.38	3.00	mal6	636	1	598	1007	602186	0.5530	malware02.jpg
450.88	3.00	bus6	609	1	768	879	675072	0.6337	busRept16.jpg
